aX,aY,aZ,gX,gY,gZ
0.089,0.175,-0.997,3.723,0.366,-2.869
0.094,0.167,-1.009,3.235,0.427,-2.563
0.106,0.164,-1.016,2.258,0.427,-2.502
0.120,0.163,-1.022,1.892,0.366,-2.930
0.132,0.161,-1.027,1.709,0.061,-3.784
0.146,0.157,-1.038,2.563,-0.183,-4.822
0.167,0.150,-1.064,3.662,0.122,-6.470
0.194,0.133,-1.102,3.845,0.916,-7.751
0.232,0.098,-1.146,3.418,2.319,-8.789
0.275,0.054,-1.191,1.526,4.089,-10.010
0.335,-0.027,-1.231,-0.732,6.348,-11.597
0.384,-0.133,-1.261,-3.052,8.301,-14.954
0.406,-0.234,-1.282,-4.822,9.033,-20.752
0.435,-0.337,-1.294,-4.578,8.423,-26.428
0.470,-0.435,-1.313,-3.845,8.484,-30.823
0.499,-0.511,-1.314,-4.272,10.315,-35.156
0.514,-0.563,-1.285,-5.981,13.306,-39.734
0.525,-0.621,-1.240,-5.981,16.296,-43.640
0.529,-0.672,-1.198,-4.639,18.494,-47.241
0.518,-0.715,-1.155,-1.770,19.897,-50.537
0.500,-0.732,-1.083,2.991,20.569,-53.528
0.456,-0.743,-0.982,10.803,22.156,-55.908
0.424,-0.743,-0.873,22.644,24.963,-62.866
0.343,-0.780,-0.799,39.795,28.625,-70.129
0.254,-0.848,-0.743,59.692,29.541,-75.623
0.195,-0.917,-0.719,78.003,32.349,-76.050
0.115,-0.954,-0.739,88.501,41.504,-74.768
-0.064,-0.993,-0.822,95.520,51.819,-72.937
-0.216,-1.077,-0.860,107.056,46.631,-62.561
-0.349,-1.128,-0.751,118.347,25.574,-46.631
-0.494,-1.079,-0.586,124.451,9.827,-33.569
-0.634,-0.975,-0.438,128.052,7.263,-19.165
-0.760,-0.776,-0.298,129.639,10.315,3.052
-0.861,-0.474,-0.104,129.822,16.357,32.349
-0.882,-0.085,0.065,132.812,27.405,66.223
-0.852,0.319,0.215,136.414,42.175,99.609
-0.913,0.706,0.337,142.761,54.382,120.422
-1.064,1.122,0.450,157.959,46.326,133.484
-1.216,1.621,0.608,172.668,13.855,153.564
-1.399,2.138,0.793,180.786,-12.512,177.917
-1.672,2.581,0.845,184.631,-11.841,206.787
-1.867,2.967,0.643,184.753,23.132,248.535
-1.421,3.288,-0.035,175.537,97.839,315.735
-1.226,3.528,-0.821,145.569,189.209,367.493
-0.645,3.667,-1.801,121.582,234.436,367.126
0.281,3.313,-2.502,113.098,196.960,334.412
1.135,2.770,-2.583,99.976,84.961,259.338
1.492,2.432,-2.069,74.890,-45.288,150.635
1.362,2.129,-1.396,43.213,-127.563,39.185
0.929,1.771,-0.917,19.836,-143.799,-57.495
0.377,1.310,-0.726,6.714,-119.812,-118.347
-0.192,0.875,-0.688,-4.883,-86.243,-141.724
-0.732,0.562,-0.655,-21.240,-55.054,-135.742
-1.060,0.300,-0.656,-34.912,-25.146,-108.704
-1.081,0.130,-0.602,-39.307,-10.498,-66.895
-0.971,0.164,-0.464,-40.466,-11.841,-26.733
-0.813,0.303,-0.374,-38.574,-10.803,-0.366
-0.643,0.435,-0.359,-32.410,-4.456,15.015
-0.490,0.544,-0.418,-25.208,-0.488,19.653
-0.380,0.592,-0.500,-18.738,-4.395,13.916
-0.325,0.602,-0.548,-13.733,-16.724,1.526
-0.333,0.571,-0.555,-11.230,-29.785,-8.240
-0.379,0.495,-0.535,-11.597,-32.654,-14.343
-0.444,0.427,-0.486,-14.282,-25.940,-13.611
-0.488,0.389,-0.476,-15.320,-14.038,-5.676
-0.466,0.383,-0.498,-14.038,-0.305,7.874
-0.394,0.434,-0.529,-13.550,13.611,23.926
-0.296,0.512,-0.572,-13.611,26.794,36.316
-0.207,0.630,-0.625,-11.963,36.255,41.504
-0.120,0.691,-0.724,-8.118,38.208,39.307
-0.094,0.719,-0.802,-5.310,31.494,27.771
-0.131,0.706,-0.819,-3.052,15.808,10.132
-0.194,0.678,-0.769,0.977,-7.324,-5.737
-0.243,0.645,-0.711,5.493,-27.344,-16.235
-0.288,0.619,-0.652,7.751,-36.255,-21.484
-0.308,0.602,-0.611,8.545,-34.790,-22.461
-0.319,0.609,-0.601,9.521,-27.649,-19.897
-0.313,0.630,-0.631,11.475,-18.311,-15.747
-0.292,0.658,-0.712,13.428,-8.850,-11.353
-0.264,0.716,-0.785,11.536,-0.427,-8.545
-0.236,0.760,-0.850,6.653,7.446,-6.287
-0.215,0.851,-0.899,0.061,13.489,-6.897
-0.207,0.901,-0.945,-6.042,16.479,-9.338
-0.219,0.971,-0.971,-11.292,14.954,-14.465
-0.214,1.019,-0.971,-15.869,10.376,-21.118
-0.195,1.035,-0.945,-20.569,5.493,-27.100
-0.167,1.075,-0.895,-27.100,3.296,-33.447
-0.138,1.097,-0.857,-33.020,4.639,-38.391
-0.135,1.126,-0.822,-38.269,7.202,-43.396
-0.146,1.193,-0.783,-42.358,8.118,-48.950
-0.160,1.297,-0.774,-46.875,9.705,-54.871
-0.153,1.379,-0.816,-54.810,14.465,-63.660
-0.189,1.490,-0.828,-67.871,18.127,-74.646
-0.268,1.647,-0.792,-80.505,14.587,-83.252
-0.312,1.844,-0.793,-89.783,7.751,-89.600
-0.388,1.884,-0.844,-101.990,6.348,-98.938
-0.469,1.864,-0.845,-120.056,5.127,-110.168
-0.541,1.890,-0.744,-136.963,-4.333,-113.647
-0.554,1.930,-0.610,-151.245,-12.817,-110.413
-0.501,1.976,-0.515,-162.048,-13.123,-104.065
-0.438,2.008,-0.463,-171.204,-7.202,-100.159
-0.373,2.019,-0.426,-177.429,-4.150,-101.807
-0.281,1.988,-0.409,-175.842,-12.390,-109.070
-0.314,1.831,-0.412,-168.274,-29.358,-129.211
-0.496,1.532,-0.400,-159.363,-51.025,-158.569
-0.709,1.075,-0.364,-150.085,-68.542,-173.767
-0.818,0.636,-0.335,-143.188,-72.327,-164.551
-0.813,0.332,-0.362,-140.930,-57.922,-138.123
-0.736,0.105,-0.472,-144.531,-32.593,-105.774
-0.614,-0.006,-0.551,-151.001,-16.235,-73.975
-0.492,-0.079,-0.551,-155.029,-16.785,-49.744
-0.378,-0.147,-0.504,-156.372,-26.917,-37.170
-0.263,-0.283,-0.418,-155.945,-38.513,-34.729
-0.183,-0.510,-0.362,-150.452,-43.945,-39.063
-0.123,-0.774,-0.382,-141.602,-43.701,-45.044
-0.073,-1.051,-0.449,-133.301,-42.603,-47.485
0.003,-1.355,-0.544,-131.226,-39.856,-51.758
0.070,-1.694,-0.661,-129.761,-35.461,-59.998
0.096,-2.065,-0.810,-124.146,-39.063,-75.439

0.189,0.040,-1.009,3.662,1.953,1.465
0.194,0.026,-1.013,3.601,2.380,1.709
0.203,0.016,-1.018,3.418,2.930,2.014
0.213,0.004,-1.026,3.113,3.174,2.075
0.226,-0.006,-1.032,2.930,3.052,2.075
0.241,-0.026,-1.037,3.174,2.747,1.648
0.256,-0.051,-1.039,3.662,3.113,1.343
0.277,-0.083,-1.037,3.906,3.662,1.099
0.298,-0.134,-1.044,5.005,4.272,-0.061
0.303,-0.198,-1.047,6.409,3.906,-2.319
0.294,-0.269,-1.040,8.484,2.563,-4.700
0.279,-0.341,-1.017,10.925,1.282,-6.714
0.271,-0.417,-0.996,14.709,1.465,-7.690
0.272,-0.488,-0.984,19.775,2.808,-6.958
0.293,-0.541,-0.986,26.672,5.432,-4.883
0.328,-0.580,-0.999,33.813,9.155,-1.526
0.365,-0.606,-1.021,40.039,14.404,3.113
0.392,-0.654,-1.041,45.105,19.958,5.981
0.408,-0.710,-1.048,49.011,23.621,5.798
0.398,-0.774,-1.026,53.406,24.780,2.380
0.370,-0.839,-0.999,61.890,23.499,-2.869
0.330,-0.898,-1.002,73.975,21.240,-5.859
0.295,-0.943,-1.035,86.487,20.935,-4.578
0.262,-0.972,-1.070,94.482,24.719,1.953
0.243,-0.995,-1.084,97.778,31.372,13.245
0.220,-1.010,-1.067,99.792,36.316,25.085
0.182,-1.020,-1.024,103.088,38.452,34.485
0.129,-1.026,-0.964,109.070,37.170,39.978
0.068,-1.019,-0.900,118.408,32.410,42.664
0.018,-0.974,-0.862,128.052,26.550,45.105
-0.035,-0.959,-0.835,134.155,23.926,49.438
-0.108,-0.823,-0.783,130.920,26.367,45.410
-0.163,-0.679,-0.702,124.146,31.128,41.504
-0.251,-0.546,-0.591,117.432,32.532,39.063
-0.408,-0.347,-0.412,112.183,29.541,35.095
-0.642,-0.101,-0.222,114.929,18.860,38.452
-0.828,0.164,0.054,122.803,0.061,56.396
-1.055,0.621,0.490,127.075,-14.465,80.017
-1.217,1.077,0.870,132.996,-15.015,100.342
-1.449,1.629,1.210,129.517,-5.493,117.004
-1.587,2.199,1.456,135.071,1.282,145.569
-1.681,2.697,1.498,162.231,2.625,184.326
-1.737,3.163,1.284,198.425,5.554,227.844
-1.730,3.578,0.823,231.201,16.724,276.917
-1.430,3.888,0.033,251.831,39.246,321.045
-0.547,3.814,-0.877,256.104,61.340,344.971
0.578,3.344,-1.405,243.225,42.725,328.430
1.573,2.940,-1.412,208.374,-8.667,276.184
2.099,2.827,-1.300,149.475,-19.714,217.590
2.168,2.882,-1.536,79.346,49.622,151.001
1.685,2.509,-1.991,16.479,128.540,65.613
0.911,1.949,-2.054,-20.264,106.140,-40.222
0.013,1.555,-1.579,-39.307,-2.747,-126.831
-0.750,1.024,-0.931,-39.551,-94.849,-180.542
-1.206,0.474,-0.347,-33.386,-126.282,-189.026
-1.343,0.127,0.043,-39.124,-91.797,-149.292
-1.256,0.068,0.164,-52.307,-16.113,-82.764
-1.079,0.237,0.020,-55.176,54.443,-17.578
-0.828,0.405,-0.261,-40.405,87.952,23.071
-0.624,0.589,-0.500,-22.888,78.369,37.109
-0.467,0.730,-0.620,-11.780,46.265,27.954
-0.403,0.677,-0.623,-6.348,14.832,5.066
-0.474,0.591,-0.528,-5.981,-9.277,-20.630
-0.623,0.510,-0.443,-3.906,-27.710,-38.696
-0.726,0.437,-0.412,2.869,-36.072,-40.344
-0.739,0.437,-0.433,6.958,-27.954,-26.428
-0.651,0.499,-0.499,6.042,-7.568,-3.906
-0.493,0.613,-0.592,1.892,14.343,18.005
-0.331,0.759,-0.700,-3.235,29.602,32.654
-0.187,0.852,-0.788,-8.301,35.522,37.170
-0.104,0.964,-0.861,-12.634,33.142,30.273
-0.052,1.028,-0.915,-16.602,25.146,14.709
-0.056,1.035,-0.922,-21.790,13.611,-3.540
-0.124,0.995,-0.862,-27.527,-0.793,-23.132
-0.225,0.943,-0.751,-31.677,-17.273,-41.016
-0.319,0.869,-0.641,-30.151,-33.386,-52.490
-0.391,0.801,-0.565,-24.902,-41.931,-56.824
-0.437,0.787,-0.525,-21.179,-37.720,-52.856
-0.429,0.823,-0.529,-20.630,-23.865,-42.480
-0.392,0.896,-0.580,-21.606,-8.057,-30.396
-0.331,0.973,-0.674,-22.644,3.784,-21.179
-0.261,1.011,-0.768,-24.414,7.935,-18.066
-0.215,1.022,-0.813,-28.870,4.700,-22.217
-0.193,1.020,-0.799,-35.339,-0.671,-28.931
-0.199,1.035,-0.751,-43.274,-2.441,-33.081
-0.221,1.061,-0.705,-49.377,1.404,-34.058
-0.243,1.091,-0.672,-52.185,6.592,-32.288
-0.275,1.141,-0.648,-53.650,8.179,-29.541
-0.273,1.165,-0.621,-53.406,4.456,-26.184
-0.256,1.210,-0.605,-52.368,-2.258,-24.292
-0.186,1.288,-0.642,-55.603,-7.935,-25.940
-0.195,1.326,-0.697,-66.223,-6.531,-37.476
-0.275,1.378,-0.705,-81.299,-1.282,-55.115
-0.372,1.476,-0.624,-95.520,-1.648,-63.904
-0.450,1.541,-0.528,-105.042,-6.104,-61.096
-0.500,1.562,-0.434,-109.924,-8.911,-54.382
-0.531,1.543,-0.349,-110.413,-11.169,-47.058
-0.548,1.516,-0.288,-106.018,-17.456,-38.452
-0.554,1.565,-0.252,-98.328,-25.818,-29.358
-0.534,1.695,-0.270,-91.919,-31.372,-20.935
-0.531,1.809,-0.313,-88.684,-32.288,-18.188
-0.467,1.847,-0.428,-83.862,-35.339,-22.644
-0.428,1.866,-0.512,-87.891,-45.349,-35.950
-0.441,1.758,-0.552,-93.018,-63.293,-57.800
-0.489,1.471,-0.518,-92.163,-87.708,-81.238
-0.589,1.233,-0.408,-91.248,-111.877,-98.450
-0.635,0.949,-0.299,-89.233,-123.840,-99.670
-0.613,0.628,-0.248,-86.731,-117.004,-85.205
-0.511,0.450,-0.274,-93.140,-99.182,-57.739
-0.329,0.240,-0.346,-102.722,-77.209,-23.193
-0.079,0.083,-0.453,-113.159,-58.594,7.996
0.223,-0.043,-0.539,-126.709,-47.180,31.616
0.511,-0.183,-0.600,-142.883,-37.842,43.274
0.786,-0.383,-0.659,-152.893,-30.090,37.109
1.064,-0.685,-0.747,-149.109,-26.245,16.357
1.309,-1.091,-0.920,-132.324,-24.963,-16.479
1.458,-1.644,-1.172,-104.736,-29.297,-69.763
1.312,-2.289,-1.424,-69.702,-44.189,-151.428
0.725,-2.866,-1.493,-31.799,-75.439,-249.573

0.263,0.066,-0.984,5.249,3.723,1.038
0.275,0.052,-0.989,6.409,4.639,0.916
0.287,0.032,-0.990,7.751,5.432,0.427
0.293,0.011,-0.989,8.606,5.920,-0.244
0.298,-0.014,-0.987,10.071,6.592,-1.343
0.304,-0.047,-0.993,12.085,7.263,-2.869
0.309,-0.085,-1.000,15.381,7.812,-4.333
0.318,-0.128,-1.014,18.982,8.057,-5.371
0.328,-0.177,-1.033,22.644,8.423,-6.470
0.343,-0.225,-1.049,25.330,9.155,-6.165
0.369,-0.266,-1.060,26.855,11.841,-4.700
0.392,-0.301,-1.069,27.344,16.174,-3.296
0.412,-0.328,-1.068,28.931,20.142,-1.465
0.433,-0.342,-1.060,31.006,23.743,-0.183
0.455,-0.355,-1.064,34.180,28.442,0.549
0.473,-0.365,-1.083,38.696,33.386,0.244
0.484,-0.370,-1.115,43.762,37.231,-1.465
0.482,-0.388,-1.148,48.462,39.551,-3.784
0.464,-0.417,-1.160,52.673,39.795,-5.859
0.445,-0.464,-1.164,55.115,39.307,-7.080
0.421,-0.515,-1.157,56.824,40.039,-7.385
0.401,-0.576,-1.146,59.448,41.016,-7.568
0.365,-0.636,-1.138,64.453,41.382,-6.897
0.323,-0.669,-1.135,70.740,40.100,-4.883
0.284,-0.718,-1.121,76.904,39.124,-1.953
0.229,-0.751,-1.090,80.994,38.635,2.014
0.176,-0.784,-1.027,84.167,36.560,7.568
0.140,-0.786,-0.962,88.318,32.349,13.123
0.057,-0.810,-0.888,93.628,27.649,20.630
0.005,-0.791,-0.804,98.145,23.193,21.973
-0.060,-0.761,-0.726,101.624,17.761,21.851
-0.131,-0.721,-0.666,101.807,10.254,19.653
-0.277,-0.609,-0.570,95.032,1.404,15.564
-0.467,-0.426,-0.359,85.510,-7.935,13.733
-0.690,-0.171,-0.077,79.895,-15.991,17.883
-0.934,0.109,0.283,80.627,-20.142,33.386
-1.152,0.487,0.669,92.102,-19.165,59.509
-1.322,0.827,1.040,114.807,-14.160,93.445
-1.423,1.304,1.232,136.292,-7.141,126.831
-1.536,1.863,1.281,147.400,4.944,157.593
-1.586,2.373,1.248,156.555,18.066,187.500
-1.631,2.840,1.094,170.410,27.039,218.872
-1.558,3.191,0.681,191.956,38.818,253.662
-1.334,3.438,-0.009,210.022,59.692,290.833
-0.736,3.564,-0.911,214.600,87.158,314.636
0.127,3.401,-1.691,202.637,86.121,306.335
0.986,3.048,-2.042,177.795,33.569,259.949
1.542,2.750,-1.920,133.911,-29.846,185.669
1.684,2.526,-1.653,73.853,-42.542,108.582
1.473,2.292,-1.442,13.000,-7.080,33.020
0.970,2.032,-1.351,-31.067,29.114,-32.349
0.408,1.523,-1.247,-48.340,28.198,-87.830
-0.189,1.115,-0.981,-54.382,-4.944,-126.648
-0.804,0.760,-0.688,-57.922,-31.555,-142.395
-1.202,0.409,-0.532,-52.734,-35.339,-134.705
-1.252,0.156,-0.409,-45.349,-26.489,-97.290
-1.110,0.170,-0.252,-47.241,-8.850,-45.776
-0.890,0.301,-0.172,-46.448,16.724,-4.150
-0.677,0.454,-0.220,-34.668,35.950,20.752
-0.518,0.584,-0.377,-17.639,39.612,30.334
-0.402,0.651,-0.543,-2.502,28.320,25.146
-0.378,0.647,-0.651,6.470,9.399,10.376
-0.420,0.562,-0.672,10.986,-9.338,-5.371
-0.500,0.499,-0.629,11.475,-23.499,-13.306
-0.548,0.486,-0.600,11.230,-24.902,-9.216
-0.514,0.503,-0.611,9.338,-12.085,6.042
-0.412,0.576,-0.634,4.150,8.728,26.794
-0.277,0.661,-0.676,-0.732,29.785,44.312
-0.154,0.753,-0.750,-3.235,42.175,53.162
-0.097,0.801,-0.799,-4.028,42.847,51.697
-0.093,0.800,-0.822,-4.089,33.508,39.124
-0.123,0.806,-0.794,-3.296,17.761,23.010
-0.164,0.783,-0.760,-1.648,2.502,10.681
-0.205,0.751,-0.711,-0.488,-7.080,2.258
-0.254,0.717,-0.654,-1.221,-10.254,-2.502
-0.289,0.692,-0.610,-1.831,-8.545,-2.808
-0.314,0.677,-0.595,-1.770,-2.625,-0.122
-0.319,0.654,-0.615,1.343,2.502,3.662
-0.317,0.662,-0.649,4.700,3.601,7.019
-0.303,0.676,-0.694,7.141,3.113,9.216
-0.292,0.696,-0.732,7.568,3.540,10.681
-0.275,0.721,-0.755,6.409,4.028,12.146
-0.242,0.731,-0.769,4.761,4.944,13.733
-0.215,0.741,-0.753,1.343,5.981,14.526
-0.180,0.753,-0.726,-1.343,6.531,14.648
-0.150,0.764,-0.708,-2.502,6.042,13.855
-0.136,0.766,-0.701,-2.319,4.517,11.597
-0.133,0.757,-0.700,-2.197,2.563,7.996
-0.138,0.751,-0.690,-3.296,0.977,4.395
-0.141,0.740,-0.674,-4.822,-0.183,0.854
-0.150,0.732,-0.659,-4.944,-2.014,-2.380
-0.156,0.719,-0.652,-4.700,-4.211,-4.639
-0.174,0.714,-0.638,-4.395,-5.676,-7.080
-0.198,0.718,-0.621,-3.784,-7.202,-10.010
-0.219,0.730,-0.615,-2.563,-8.728,-12.085
-0.232,0.744,-0.620,-1.038,-9.155,-13.306
-0.249,0.761,-0.639,0.305,-8.545,-14.160
-0.265,0.788,-0.677,1.587,-7.080,-14.648
-0.245,0.848,-0.721,2.441,-5.615,-16.113
-0.253,0.919,-0.761,1.404,-4.395,-16.846
-0.252,0.975,-0.797,0.122,-3.906,-20.935
-0.278,1.052,-0.836,-1.770,-5.615,-26.428
-0.293,1.085,-0.851,-3.418,-9.521,-31.494
-0.263,1.099,-0.845,-5.371,-14.099,-36.926
-0.239,1.174,-0.806,-11.169,-16.602,-41.199
-0.182,1.245,-0.767,-20.203,-14.832,-47.791
-0.155,1.273,-0.719,-30.457,-10.193,-55.725
-0.177,1.319,-0.654,-40.955,-6.775,-66.406
-0.250,1.367,-0.591,-50.781,-4.211,-77.454
-0.389,1.419,-0.546,-56.274,-4.639,-86.121
-0.506,1.404,-0.529,-55.908,-8.118,-92.773
-0.635,1.441,-0.528,-57.007,-12.634,-92.773
-0.717,1.460,-0.501,-61.157,-15.381,-83.618
-0.740,1.487,-0.506,-70.007,-14.282,-71.899
-0.762,1.513,-0.512,-85.693,-6.348,-62.439
-0.748,1.576,-0.494,-102.783,1.709,-54.626
-0.688,1.596,-0.463,-116.150,4.761,-46.326
-0.645,1.627,-0.387,-126.770,2.319,-40.649
-0.630,1.654,-0.317,-133.057,-5.188,-39.795

0.217,0.177,-0.988,2.014,3.723,-1.160
0.228,0.168,-0.996,1.892,4.822,-1.526
0.238,0.155,-1.006,1.892,5.859,-1.343
0.252,0.142,-1.015,1.648,6.348,-0.977
0.268,0.120,-1.022,1.648,7.202,-1.099
0.286,0.099,-1.034,1.465,8.057,-1.465
0.307,0.077,-1.053,1.404,8.972,-1.953
0.328,0.046,-1.073,1.404,10.071,-2.380
0.353,0.012,-1.090,0.732,11.719,-2.625
0.385,-0.028,-1.100,-0.366,13.367,-2.869
0.416,-0.076,-1.103,-0.916,14.954,-3.662
0.446,-0.136,-1.110,-0.366,17.395,-5.615
0.465,-0.209,-1.121,1.526,19.104,-9.399
0.477,-0.293,-1.133,4.761,19.592,-13.794
0.489,-0.392,-1.129,8.301,19.714,-17.334
0.496,-0.495,-1.111,12.146,20.569,-21.484
0.488,-0.595,-1.095,18.494,22.034,-26.367
0.477,-0.692,-1.084,27.954,22.888,-31.738
0.449,-0.754,-1.080,37.964,23.926,-34.912
0.400,-0.798,-1.079,47.546,26.184,-32.776
0.381,-0.850,-1.068,56.396,28.870,-27.283
0.345,-0.827,-1.056,62.317,31.982,-20.081
0.335,-0.828,-1.046,68.970,36.987,-8.118
0.336,-0.793,-1.051,74.646,41.992,4.150
0.368,-0.742,-1.082,78.796,47.607,15.503
0.400,-0.690,-1.118,80.566,52.490,23.560
0.424,-0.641,-1.146,78.674,54.321,25.940
0.416,-0.592,-1.131,74.219,50.537,24.170
0.391,-0.562,-1.088,69.458,41.016,18.799
0.350,-0.597,-1.017,66.589,26.794,9.766
0.234,-0.573,-0.901,64.026,9.338,-3.540
0.116,-0.631,-0.764,64.697,-7.935,-14.343
-0.059,-0.619,-0.613,66.772,-23.254,-26.184
-0.281,-0.557,-0.449,64.941,-34.912,-32.166
-0.533,-0.434,-0.263,61.279,-42.175,-29.419
-0.827,-0.238,-0.058,56.335,-46.997,-12.390
-1.090,0.023,0.288,56.030,-47.485,16.663
-1.273,0.404,0.695,70.313,-40.039,52.551
-1.340,0.811,1.014,94.666,-21.912,93.994
-1.505,1.314,1.245,118.958,0.793,128.967
-1.691,1.851,1.393,147.400,21.484,152.954
-1.856,2.368,1.429,173.218,30.273,183.716
-2.013,2.919,1.295,196.960,31.128,228.699
-1.988,3.261,0.844,218.933,43.762,279.175
-1.769,3.512,0.140,228.333,84.839,324.951
-1.160,3.623,-0.722,229.370,128.479,350.281
-0.197,3.383,-1.417,234.985,118.835,342.651
0.851,2.984,-1.663,236.389,39.368,297.180
1.936,2.707,-1.568,207.397,-31.860,245.300
2.216,2.968,-1.533,127.930,-9.399,194.397
2.077,2.812,-1.896,42.542,92.224,100.952
1.266,2.188,-2.210,-13.855,146.790,-2.869
0.313,1.702,-2.054,-45.654,75.439,-104.797
-0.537,1.272,-1.551,-47.180,-50.232,-165.771
-1.115,0.769,-0.978,-37.354,-134.460,-190.613
-1.365,0.335,-0.455,-36.377,-143.188,-171.814
-1.301,0.114,-0.065,-49.133,-87.097,-114.563
-1.103,0.150,0.089,-61.584,-1.526,-44.067
-0.906,0.338,-0.030,-59.998,73.364,13.550
-0.706,0.468,-0.295,-41.138,109.253,43.823
-0.553,0.615,-0.539,-20.569,99.548,49.255
-0.437,0.720,-0.688,-4.150,59.692,35.217
-0.385,0.715,-0.754,9.644,13.062,7.690
-0.412,0.615,-0.724,16.907,-23.193,-18.677
-0.510,0.560,-0.654,15.625,-43.762,-35.278
-0.582,0.518,-0.602,13.611,-47.729,-35.156
-0.575,0.546,-0.588,10.986,-35.278,-21.057
-0.480,0.599,-0.628,9.216,-11.841,-1.404
-0.346,0.675,-0.698,7.019,10.193,17.395
-0.222,0.775,-0.779,4.761,23.926,28.931
-0.135,0.837,-0.846,2.441,27.039,31.921
-0.116,0.859,-0.888,-0.610,20.386,26.855
-0.137,0.819,-0.872,-3.906,8.728,14.465
-0.196,0.770,-0.791,-8.728,-4.822,1.343
-0.258,0.727,-0.686,-12.390,-16.663,-5.310
-0.295,0.702,-0.597,-13.000,-22.217,-6.958
-0.322,0.687,-0.535,-11.963,-19.592,-5.676
-0.332,0.673,-0.500,-8.301,-11.780,-2.686
-0.333,0.681,-0.508,-2.808,-3.906,1.709
-0.313,0.684,-0.561,3.723,0.916,6.714
-0.288,0.694,-0.626,8.606,2.380,10.315
-0.265,0.708,-0.683,10.437,1.526,11.292
-0.262,0.718,-0.721,9.460,-0.061,10.376
-0.252,0.723,-0.747,6.470,-1.282,9.888
-0.229,0.734,-0.755,1.465,-0.732,10.803
-0.206,0.753,-0.739,-4.639,0.488,12.024
-0.178,0.769,-0.714,-8.789,1.221,12.573
-0.147,0.782,-0.687,-10.803,0.488,12.146
-0.118,0.787,-0.669,-10.620,-0.366,10.620
-0.099,0.790,-0.656,-9.521,-0.793,7.935
-0.091,0.781,-0.654,-8.118,-1.038,3.723
-0.104,0.767,-0.655,-7.263,-2.563,-1.587
-0.126,0.765,-0.644,-6.409,-6.165,-6.958
-0.148,0.762,-0.632,-4.700,-10.925,-12.268
-0.167,0.762,-0.626,-2.625,-15.015,-16.357
-0.183,0.773,-0.620,-1.526,-16.052,-19.226
-0.187,0.805,-0.623,-1.404,-13.916,-20.813
-0.183,0.859,-0.641,-2.319,-10.010,-21.240
-0.175,0.918,-0.665,-3.357,-5.371,-21.973
-0.158,0.974,-0.695,-4.272,-2.014,-25.452
-0.152,1.046,-0.744,-6.226,-2.991,-31.250
-0.136,1.026,-0.752,-6.714,-6.714,-37.415
-0.148,1.046,-0.745,-8.179,-11.353,-48.035
-0.161,1.082,-0.731,-10.193,-15.259,-58.289
-0.190,1.131,-0.713,-11.536,-17.334,-65.979
-0.192,1.177,-0.706,-13.000,-17.944,-74.219
-0.211,1.267,-0.685,-17.700,-17.883,-81.543
-0.248,1.361,-0.623,-23.682,-17.639,-86.792
-0.268,1.429,-0.559,-27.222,-17.090,-92.041
-0.318,1.523,-0.507,-32.349,-14.832,-94.299
-0.383,1.634,-0.497,-41.443,-9.888,-95.398
-0.416,1.689,-0.543,-53.772,-0.122,-93.750
-0.515,1.705,-0.566,-74.158,13.977,-94.238
-0.605,1.692,-0.556,-94.971,25.879,-93.994
-0.645,1.635,-0.490,-113.159,27.832,-86.792
-0.646,1.618,-0.388,-128.906,23.682,-75.684
-0.621,1.606,-0.303,-139.954,18.616,-66.711
-0.581,1.545,-0.256,-145.752,12.024,-63.110
-0.553,1.417,-0.251,-144.226,2.258,-65.552

0.303,-0.023,-1.025,10.498,6.409,-6.226
0.306,-0.062,-1.043,13.000,7.507,-8.118
0.295,-0.106,-1.053,15.869,7.080,-10.559
0.271,-0.152,-1.060,18.677,5.676,-12.390
0.248,-0.193,-1.072,21.606,4.761,-12.573
0.230,-0.219,-1.090,23.926,4.944,-11.353
0.225,-0.234,-1.123,26.306,6.775,-7.874
0.240,-0.233,-1.168,29.053,9.155,-3.357
0.264,-0.219,-1.205,30.762,10.925,1.770
0.303,-0.195,-1.228,31.250,12.024,6.531
0.353,-0.173,-1.241,31.372,12.817,10.925
0.403,-0.154,-1.241,31.738,13.184,13.306
0.450,-0.143,-1.230,31.860,13.611,13.733
0.486,-0.143,-1.220,33.264,13.550,12.634
0.506,-0.147,-1.204,35.217,13.245,10.925
0.522,-0.164,-1.188,37.598,12.817,9.033
0.531,-0.183,-1.164,40.344,13.245,8.545
0.538,-0.193,-1.133,41.809,14.587,9.338
0.536,-0.193,-1.092,41.809,16.663,10.010
0.517,-0.195,-1.041,42.664,18.066,10.376
0.507,-0.204,-0.998,45.349,18.860,11.658
0.498,-0.205,-0.966,48.035,20.813,14.221
0.488,-0.200,-0.951,50.598,23.987,16.479
0.471,-0.218,-0.944,51.819,26.062,17.334
0.428,-0.235,-0.914,50.842,24.109,15.869
0.374,-0.257,-0.864,49.500,18.005,13.000
0.309,-0.295,-0.804,48.889,9.216,9.766
0.218,-0.323,-0.723,49.133,-0.244,5.554
0.094,-0.343,-0.614,50.476,-8.362,2.869
-0.050,-0.371,-0.493,54.077,-13.550,4.883
-0.244,-0.343,-0.361,59.509,-15.808,8.972
-0.429,-0.288,-0.180,65.979,-14.221,18.250
-0.613,-0.145,0.009,76.782,-6.714,33.813
-0.712,-0.066,0.182,88.318,6.104,54.382
-0.848,0.165,0.351,96.558,22.034,74.524
-1.012,0.466,0.523,102.356,38.147,92.163
-1.196,0.786,0.682,115.295,46.631,109.985
-1.363,1.157,0.807,133.057,43.152,130.188
-1.555,1.530,0.899,148.560,36.926,147.888
-1.791,1.912,0.875,162.231,36.560,165.039
-2.011,2.254,0.692,178.406,38.391,194.641
-2.062,2.553,0.374,190.552,46.509,240.173
-1.798,2.761,-0.093,196.899,67.078,286.377
-1.198,2.823,-0.619,201.660,83.069,311.707
-0.427,2.674,-0.983,203.674,64.148,308.350
0.303,2.463,-1.067,197.632,13.794,275.696
0.936,2.406,-1.027,170.776,-16.907,239.075
1.533,2.586,-1.090,121.887,15.015,215.759
1.542,2.750,-1.492,52.307,103.638,179.260
1.268,2.406,-2.075,2.991,169.983,94.604
0.646,1.863,-2.213,-23.865,130.188,-6.104
-0.035,1.485,-1.786,-30.396,-0.427,-96.680
-0.636,1.053,-1.135,-23.071,-120.728,-150.391
-1.029,0.622,-0.542,-19.836,-161.926,-165.100
-1.177,0.313,-0.157,-30.823,-121.887,-135.498
-1.124,0.191,0.023,-50.476,-40.100,-76.416
-0.979,0.291,-0.006,-63.904,38.147,-14.038
-0.769,0.448,-0.178,-58.716,83.862,30.518
-0.562,0.577,-0.387,-39.612,88.623,47.913
-0.401,0.661,-0.535,-19.531,60.852,41.321
-0.322,0.678,-0.596,-2.380,19.409,17.761
-0.342,0.629,-0.585,10.193,-15.808,-10.620
-0.438,0.594,-0.536,15.442,-35.950,-31.555
-0.524,0.565,-0.516,18.066,-40.405,-36.743
-0.556,0.564,-0.547,19.348,-31.555,-27.344
-0.516,0.577,-0.622,17.517,-13.184,-10.193
-0.440,0.631,-0.687,11.780,4.944,8.423
-0.344,0.716,-0.719,5.432,17.822,22.339
-0.261,0.751,-0.738,2.869,21.301,27.649
-0.208,0.794,-0.728,2.075,15.381,25.330
-0.171,0.813,-0.706,2.258,6.653,17.700
-0.165,0.803,-0.682,1.526,-0.427,8.789
-0.195,0.772,-0.645,-0.366,-5.188,-1.404
-0.240,0.751,-0.605,-1.038,-10.193,-9.888
-0.293,0.720,-0.578,0.916,-16.785,-15.869
-0.330,0.701,-0.551,3.967,-20.691,-18.127
-0.356,0.681,-0.532,6.958,-19.348,-16.663
-0.374,0.665,-0.550,10.071,-14.465,-12.573
-0.391,0.670,-0.589,11.536,-8.545,-7.080
-0.385,0.686,-0.629,11.475,-2.930,-0.183
-0.343,0.722,-0.662,10.498,1.770,8.179
-0.276,0.760,-0.701,7.935,6.287,15.259
-0.208,0.803,-0.741,3.845,10.559,18.799
-0.155,0.832,-0.764,-0.854,12.573,18.005
-0.129,0.856,-0.763,-5.432,10.864,13.977
-0.126,0.870,-0.738,-8.118,6.226,7.935
-0.131,0.853,-0.708,-8.850,1.099,1.465
-0.154,0.812,-0.668,-9.216,-2.686,-3.967
-0.186,0.768,-0.619,-9.888,-5.371,-8.057
-0.214,0.730,-0.567,-9.583,-6.714,-10.620
-0.242,0.722,-0.541,-7.751,-6.226,-11.475
-0.252,0.714,-0.555,-3.845,-3.479,-10.559
-0.246,0.709,-0.593,-1.892,0.000,-8.240
-0.237,0.721,-0.615,-2.319,2.808,-6.531
-0.222,0.742,-0.627,-3.479,3.723,-6.165
-0.208,0.746,-0.641,-3.601,3.235,-7.446
-0.207,0.751,-0.649,-3.540,1.404,-9.949
-0.221,0.756,-0.642,-4.272,-0.366,-13.428
-0.245,0.756,-0.633,-4.517,-1.648,-16.235
-0.266,0.750,-0.626,-4.150,-2.808,-17.700
-0.285,0.725,-0.617,-2.869,-3.906,-18.738
-0.306,0.721,-0.607,-1.709,-4.761,-19.226
-0.314,0.726,-0.609,0.427,-4.883,-18.311
-0.309,0.736,-0.627,3.296,-4.456,-16.663
-0.298,0.761,-0.655,4.944,-2.991,-14.893
-0.273,0.798,-0.678,5.371,-1.892,-13.489
-0.244,0.842,-0.696,4.578,-1.953,-13.672
-0.220,0.881,-0.717,2.930,-3.113,-16.357
-0.214,0.912,-0.727,0.488,-4.822,-21.545
-0.223,0.939,-0.723,-2.625,-6.958,-28.320
-0.238,0.959,-0.719,-5.981,-8.179,-34.668
-0.251,0.989,-0.703,-10.437,-8.057,-39.429
-0.251,1.012,-0.681,-15.686,-6.897,-44.189
-0.241,1.056,-0.649,-20.630,-5.737,-49.744
-0.214,1.104,-0.618,-23.682,-5.432,-55.176
-0.189,1.149,-0.598,-25.879,-4.822,-61.707
-0.179,1.185,-0.576,-28.931,-4.883,-69.885
-0.188,1.205,-0.534,-33.997,-6.348,-78.552
-0.236,1.245,-0.456,-40.100,-8.179,-87.769

0.299,0.176,-0.976,-2.380,7.629,4.333
0.305,0.159,-0.987,-2.258,8.118,4.028
0.307,0.142,-0.999,-2.930,9.094,4.578
0.308,0.123,-1.016,-3.967,11.047,6.226
0.315,0.113,-1.030,-5.493,13.489,8.606
0.331,0.103,-1.046,-7.202,16.418,11.292
0.358,0.097,-1.065,-8.789,18.921,12.939
0.383,0.082,-1.090,-9.827,21.057,13.794
0.412,0.061,-1.118,-10.742,22.583,13.977
0.450,0.042,-1.143,-11.780,24.170,13.245
0.483,0.013,-1.175,-12.939,25.818,10.925
0.511,-0.027,-1.196,-14.526,26.367,7.568
0.547,-0.102,-1.199,-15.991,26.123,3.357
0.576,-0.223,-1.193,-17.090,25.879,-2.808
0.580,-0.378,-1.180,-15.930,25.024,-12.451
0.552,-0.526,-1.163,-11.353,21.973,-24.475
0.495,-0.650,-1.156,-3.174,17.578,-36.377
0.430,-0.753,-1.152,6.592,14.099,-44.189
0.368,-0.822,-1.146,15.076,13.123,-45.959
0.322,-0.862,-1.142,20.996,15.503,-42.114
0.289,-0.898,-1.147,25.574,20.020,-33.752
0.265,-0.906,-1.136,29.480,23.376,-23.926
0.252,-0.891,-1.111,33.875,25.818,-13.977
0.251,-0.845,-1.073,38.757,27.405,-4.272
0.256,-0.788,-1.044,44.495,29.663,5.005
0.275,-0.724,-1.034,50.964,32.288,13.306
0.286,-0.669,-1.039,57.129,34.119,18.799
0.275,-0.633,-1.043,61.401,32.532,19.836
0.244,-0.631,-1.028,64.880,25.085,16.479
0.188,-0.642,-0.974,66.833,11.475,9.705
0.120,-0.632,-0.902,66.711,-3.113,2.014
0.012,-0.629,-0.811,62.439,-15.625,-0.061
-0.103,-0.628,-0.704,54.443,-24.963,1.465
-0.229,-0.523,-0.560,38.452,-32.654,1.709
-0.385,-0.340,-0.352,19.348,-38.086,6.165
-0.624,-0.058,0.044,9.644,-38.635,14.465
-0.905,0.312,0.565,29.297,-35.156,25.269
-1.089,0.561,1.000,78.613,-29.236,50.903
-1.204,0.910,1.259,132.507,-22.644,87.463
-1.371,1.389,1.349,171.021,-11.475,117.981
-1.534,1.904,1.307,194.946,6.348,146.545
-1.609,2.376,1.150,205.933,25.330,182.678
-1.734,2.784,0.887,209.595,42.480,221.863
-1.775,3.148,0.490,212.402,61.829,261.658
-1.621,3.446,-0.082,216.431,92.834,306.091
-1.008,3.496,-0.854,225.708,123.108,336.182
-0.093,3.206,-1.540,235.962,111.938,331.909
0.827,2.748,-1.832,231.873,41.870,286.255
1.566,2.436,-1.765,197.632,-28.809,229.614
2.116,2.490,-1.599,127.686,-26.550,180.359
1.828,2.513,-1.692,37.476,55.298,114.014
1.373,1.975,-1.948,-12.939,123.413,20.386
0.635,1.570,-1.872,-45.776,94.177,-57.068
-0.057,1.194,-1.487,-58.350,4.944,-115.540
-0.596,0.793,-0.978,-52.429,-77.148,-147.034
-0.926,0.441,-0.518,-47.302,-109.009,-148.193
-1.015,0.219,-0.205,-50.293,-80.017,-114.746
-0.950,0.138,-0.057,-59.570,-14.954,-62.012
-0.848,0.214,-0.062,-63.354,47.119,-14.404
-0.719,0.353,-0.207,-51.208,81.848,16.602
-0.554,0.488,-0.420,-26.062,83.618,32.227
-0.421,0.593,-0.605,-4.028,59.814,31.982
-0.358,0.625,-0.708,10.132,26.001,16.724
-0.363,0.610,-0.753,19.592,-5.310,-5.920
-0.436,0.559,-0.745,24.658,-27.161,-21.362
-0.508,0.535,-0.747,24.719,-35.156,-24.841
-0.497,0.521,-0.771,22.278,-26.794,-14.343
-0.436,0.566,-0.798,16.052,-8.667,2.808
-0.350,0.614,-0.822,9.216,10.803,19.287
-0.257,0.697,-0.837,4.883,24.475,30.823
-0.187,0.755,-0.858,3.479,29.846,37.292
-0.144,0.782,-0.894,3.113,29.907,36.926
-0.137,0.776,-0.901,1.038,25.696,31.555
-0.147,0.773,-0.866,-2.380,17.517,23.193
-0.176,0.766,-0.819,-4.700,7.935,15.076
-0.200,0.744,-0.783,-5.493,0.183,9.155
-0.224,0.706,-0.750,-6.836,-4.639,4.944
-0.248,0.675,-0.710,-9.094,-6.897,2.808
-0.269,0.655,-0.667,-10.376,-7.629,2.991
-0.284,0.650,-0.633,-7.751,-7.263,4.028
-0.286,0.646,-0.640,-1.465,-6.042,5.737
-0.284,0.661,-0.680,4.639,-4.333,8.911
-0.262,0.673,-0.736,8.423,-1.038,13.000
-0.219,0.695,-0.786,8.728,3.357,17.822
-0.170,0.721,-0.820,5.859,7.568,21.790
-0.123,0.740,-0.837,1.770,9.277,23.254
-0.081,0.757,-0.843,-2.563,8.301,22.034
-0.057,0.755,-0.829,-6.714,5.798,18.188
-0.059,0.751,-0.790,-10.193,2.380,12.512
-0.070,0.736,-0.753,-11.780,-0.793,7.141
-0.084,0.712,-0.720,-11.597,-3.723,2.625
-0.104,0.691,-0.672,-10.010,-6.714,-1.038
-0.123,0.666,-0.623,-5.615,-9.277,-3.296
-0.146,0.632,-0.599,-0.061,-10.498,-4.395
-0.167,0.616,-0.597,4.211,-8.362,-4.272
-0.176,0.617,-0.618,6.042,-2.808,-2.197
-0.172,0.626,-0.660,6.714,3.601,1.282
-0.165,0.633,-0.707,5.920,8.057,3.479
-0.165,0.635,-0.736,4.822,9.033,3.784
-0.161,0.643,-0.747,3.113,6.592,2.563
-0.165,0.649,-0.740,1.404,3.174,0.977
-0.176,0.658,-0.726,0.427,0.793,-1.160
-0.182,0.657,-0.714,-0.244,0.366,-2.197
-0.188,0.661,-0.716,0.000,1.038,-1.831
-0.199,0.666,-0.723,0.916,2.258,-1.587
-0.207,0.668,-0.721,2.319,2.930,-1.892
-0.208,0.671,-0.728,5.432,2.136,-2.258
-0.213,0.673,-0.753,8.301,0.977,-2.502
-0.219,0.671,-0.783,9.399,0.488,-3.174
-0.226,0.676,-0.798,7.568,-0.366,-3.479
-0.231,0.677,-0.794,4.822,-1.587,-3.540
-0.229,0.673,-0.780,2.075,-1.953,-3.540
-0.226,0.674,-0.765,-0.671,-1.526,-3.174
-0.219,0.672,-0.752,-2.625,-1.282,-2.869
-0.222,0.666,-0.743,-3.540,-1.892,-3.479
-0.225,0.665,-0.738,-3.723,-3.235,-4.272
-0.229,0.658,-0.726,-3.235,-4.456,-4.639
-0.230,0.649,-0.714,-2.625,-5.432,-4.822
-0.228,0.648,-0.703,-2.258,-5.920,-4.700

0.295,0.177,-0.998,1.404,4.883,0.244
0.302,0.157,-1.005,0.793,5.493,-0.671
0.303,0.137,-1.009,-0.061,6.348,-1.099
0.308,0.114,-1.017,-0.854,7.690,-0.549
0.309,0.085,-1.029,-2.014,9.521,0.549
0.320,0.065,-1.036,-3.113,11.353,2.380
0.337,0.045,-1.043,-4.089,13.794,3.845
0.362,0.023,-1.059,-4.150,15.991,4.089
0.392,-0.001,-1.076,-2.930,16.663,3.052
0.414,-0.043,-1.106,-0.488,16.357,-0.061
0.429,-0.094,-1.135,1.770,15.503,-3.967
0.435,-0.154,-1.152,3.967,13.489,-8.118
0.442,-0.220,-1.148,5.615,11.108,-11.597
0.450,-0.283,-1.132,6.775,10.254,-13.916
0.453,-0.344,-1.107,7.935,11.780,-15.503
0.460,-0.404,-1.092,10.010,14.465,-16.846
0.461,-0.460,-1.096,14.404,17.273,-17.517
0.452,-0.524,-1.114,21.057,19.409,-17.395
0.450,-0.574,-1.138,28.442,20.691,-18.005
0.436,-0.602,-1.148,33.020,22.278,-18.127
0.422,-0.629,-1.157,36.682,24.536,-16.724
0.402,-0.647,-1.159,40.405,26.184,-14.709
0.390,-0.669,-1.163,44.983,27.466,-11.169
0.386,-0.704,-1.170,50.598,27.649,-7.935
0.367,-0.733,-1.174,56.213,26.184,-6.409
0.332,-0.745,-1.159,61.096,23.743,-4.578
0.292,-0.752,-1.141,66.650,20.508,-1.221
0.228,-0.774,-1.130,71.655,15.259,4.944
0.188,-0.848,-1.095,75.623,8.179,8.911
0.110,-0.841,-1.028,75.806,-0.793,9.888
0.011,-0.791,-0.915,69.031,-9.705,13.123
-0.107,-0.743,-0.771,63.538,-16.113,17.334
-0.279,-0.661,-0.567,61.707,-20.630,22.827
-0.468,-0.550,-0.301,64.270,-24.963,28.687
-0.661,-0.405,-0.023,71.472,-27.283,40.405
-0.813,-0.203,0.247,77.637,-23.865,58.777
-0.992,0.137,0.529,78.857,-13.550,81.177
-1.163,0.617,0.850,82.336,1.221,105.225
-1.327,1.203,1.179,94.421,14.893,131.409
-1.594,1.781,1.543,119.446,22.095,151.184
-1.885,2.370,1.755,152.710,21.912,172.852
-2.121,2.953,1.719,190.796,21.301,212.708
-2.255,3.408,1.269,230.652,39.185,272.217
-2.181,3.741,0.420,254.211,88.928,334.778
-1.688,3.929,-0.703,256.958,152.222,380.127
-0.569,3.684,-1.681,251.648,170.288,391.052
0.675,3.138,-2.062,237.183,98.572,357.544
1.807,2.891,-1.983,195.251,7.263,295.959
2.371,3.167,-1.911,112.305,6.653,233.826
2.223,3.126,-2.229,17.578,99.670,139.526
1.458,2.416,-2.573,-38.330,155.396,18.005
0.595,1.796,-2.272,-64.148,66.284,-99.121
-0.213,1.358,-1.515,-69.214,-83.252,-173.401
-0.862,0.845,-0.718,-68.481,-166.809,-213.867
-1.246,0.387,-0.154,-69.519,-157.593,-212.341
-1.344,0.046,0.160,-76.782,-89.417,-158.325
-1.267,-0.040,0.236,-84.595,-1.221,-85.938
-1.109,0.094,0.101,-81.726,71.411,-18.982
-0.873,0.244,-0.121,-63.354,106.567,28.503
-0.622,0.413,-0.357,-38.330,102.722,51.514
-0.426,0.573,-0.520,-17.883,70.679,50.659
-0.303,0.648,-0.623,-0.977,29.907,26.428
-0.294,0.631,-0.665,13.489,-7.507,-5.798
-0.378,0.565,-0.670,23.743,-36.926,-33.630
-0.477,0.511,-0.655,28.931,-54.749,-46.631
-0.538,0.461,-0.661,29.175,-55.054,-42.603
-0.541,0.448,-0.658,23.193,-38.330,-27.222
-0.503,0.476,-0.665,12.817,-13.062,-5.371
-0.410,0.537,-0.663,3.235,10.437,18.188
-0.303,0.630,-0.687,-2.930,27.954,35.706
-0.211,0.687,-0.730,-4.639,36.682,43.701
-0.161,0.736,-0.756,-4.944,36.255,42.969
-0.138,0.750,-0.777,-4.028,28.320,35.339
-0.151,0.758,-0.752,-2.991,17.334,25.696
-0.186,0.752,-0.718,-1.282,5.737,14.954
-0.214,0.715,-0.683,1.282,-2.258,6.592
-0.248,0.685,-0.654,2.014,-6.104,1.099
-0.281,0.652,-0.639,2.014,-6.226,-1.587
-0.318,0.643,-0.636,2.563,-4.883,-1.831
-0.338,0.643,-0.648,5.249,-3.601,0.610
-0.349,0.639,-0.675,9.399,-2.075,4.272
-0.345,0.637,-0.706,12.634,0.122,8.545
-0.322,0.647,-0.740,13.123,2.686,13.367
-0.291,0.662,-0.767,10.498,6.104,17.883
-0.262,0.691,-0.791,6.287,9.766,20.996
-0.224,0.724,-0.802,1.526,11.719,22.583
-0.181,0.746,-0.791,-3.052,11.780,22.461
-0.144,0.759,-0.761,-6.348,9.949,20.081
-0.123,0.762,-0.723,-7.141,6.165,15.747
-0.108,0.750,-0.689,-6.104,1.892,10.376
-0.112,0.736,-0.663,-4.150,-1.709,4.822
-0.129,0.713,-0.643,-0.793,-4.883,-0.793
-0.161,0.682,-0.630,3.723,-8.423,-5.005
-0.194,0.654,-0.627,7.874,-11.353,-7.935
-0.223,0.633,-0.624,10.925,-12.146,-8.423
-0.242,0.630,-0.625,12.634,-10.254,-7.202
-0.247,0.633,-0.642,13.611,-6.042,-4.456
-0.243,0.645,-0.668,13.794,-1.770,-1.343
-0.232,0.664,-0.697,13.123,2.075,2.075
-0.221,0.682,-0.723,11.292,5.188,4.333
-0.204,0.700,-0.749,8.911,7.446,5.188
-0.195,0.716,-0.757,6.042,8.972,4.639
-0.187,0.734,-0.761,4.089,8.667,3.174
-0.190,0.736,-0.769,3.601,7.141,0.671
-0.208,0.724,-0.770,3.479,4.700,-2.808
-0.238,0.706,-0.758,3.174,1.770,-5.432
-0.267,0.684,-0.742,2.808,-0.610,-6.714
-0.285,0.671,-0.730,2.136,-1.221,-5.981
-0.289,0.668,-0.730,1.282,0.122,-4.089
-0.284,0.665,-0.732,0.244,2.319,-2.075
-0.274,0.674,-0.736,-1.221,3.784,0.122
-0.266,0.682,-0.739,-2.014,4.272,1.465
-0.257,0.681,-0.735,-2.502,3.967,1.648
-0.255,0.671,-0.733,-2.686,3.235,1.587
-0.255,0.669,-0.725,-3.052,2.075,1.953
-0.249,0.669,-0.713,-3.540,1.221,2.441
-0.242,0.671,-0.702,-3.418,1.099,3.174
-0.237,0.672,-0.697,-3.235,1.282,3.845
-0.231,0.672,-0.692,-3.479,1.526,4.028

0.233,0.170,-1.000,-0.916,3.479,-1.404
0.248,0.160,-1.009,-0.977,3.784,-1.526
0.259,0.146,-1.017,-1.099,4.456,-2.014
0.272,0.135,-1.028,-1.038,5.188,-3.113
0.288,0.121,-1.043,-0.427,6.287,-3.784
0.300,0.104,-1.070,-0.061,7.996,-4.028
0.322,0.089,-1.099,-0.854,10.193,-3.845
0.344,0.071,-1.132,-2.747,13.428,-3.601
0.363,0.045,-1.166,-4.700,16.235,-3.906
0.384,0.008,-1.198,-6.409,17.761,-4.761
0.407,-0.039,-1.224,-7.019,18.921,-6.836
0.429,-0.104,-1.250,-7.385,20.020,-10.376
0.448,-0.165,-1.258,-7.874,20.935,-14.587
0.459,-0.240,-1.254,-6.897,21.851,-19.226
0.465,-0.319,-1.237,-4.639,22.278,-25.085
0.454,-0.390,-1.214,-1.770,21.790,-31.006
0.445,-0.467,-1.182,2.625,21.545,-35.645
0.409,-0.523,-1.159,8.301,21.423,-37.720
0.424,-0.645,-1.154,17.639,21.729,-37.415
0.387,-0.745,-1.125,26.245,20.874,-35.645
0.359,-0.779,-1.100,33.691,19.287,-41.016
0.314,-0.819,-1.081,43.152,20.752,-39.490
0.279,-0.855,-1.080,53.040,22.644,-31.921
0.250,-0.925,-1.072,60.730,23.987,-21.362
0.193,-0.926,-1.054,64.697,23.254,-11.230
0.129,-0.932,-1.032,70.557,21.545,-3.052
0.065,-0.934,-1.006,78.308,17.334,3.906
0.005,-0.914,-0.979,87.036,10.620,12.268
-0.046,-0.882,-0.921,92.712,3.601,24.170
-0.113,-0.823,-0.833,96.680,-1.160,35.767
-0.169,-0.754,-0.732,99.792,-2.869,43.091
-0.260,-0.614,-0.623,98.328,-3.418,51.025
-0.316,-0.537,-0.505,94.604,-2.991,60.181
-0.424,-0.330,-0.364,84.412,-5.005,63.110
-0.548,-0.059,-0.177,70.923,-8.362,68.115
-0.673,0.227,0.080,60.791,-9.949,74.646
-0.870,0.574,0.444,58.228,-6.226,78.186
-1.094,1.013,0.871,71.899,-5.859,83.679
-1.267,1.411,1.271,102.722,-13.672,100.708
-1.404,1.817,1.546,141.235,-22.583,121.338
-1.482,2.204,1.584,178.528,-21.790,151.306
-1.549,2.616,1.394,210.999,-9.583,192.993
-1.509,2.920,0.934,236.450,15.930,239.258
-1.375,3.206,0.266,240.112,59.570,280.945
-1.036,3.381,-0.610,224.670,112.488,308.105
-0.298,3.214,-1.461,209.961,136.353,309.692
0.538,2.791,-1.965,192.078,98.206,280.273
1.136,2.406,-1.974,160.583,18.860,219.177
1.362,2.236,-1.698,112.915,-33.325,149.475
1.337,2.137,-1.414,54.565,-24.292,82.092
1.105,1.978,-1.340,6.348,20.142,20.996
0.717,1.622,-1.340,-23.621,49.866,-29.297
0.224,1.287,-1.265,-39.978,36.377,-75.256
-0.277,0.967,-1.060,-46.509,-3.479,-111.572
-0.645,0.649,-0.779,-44.128,-42.725,-126.770
-0.856,0.429,-0.511,-44.373,-56.091,-115.356
-0.896,0.304,-0.332,-50.964,-33.081,-81.970
-0.813,0.352,-0.238,-59.265,9.460,-39.612
-0.665,0.447,-0.277,-59.204,49.805,-2.502
-0.504,0.549,-0.413,-47.363,69.397,18.799
-0.368,0.625,-0.550,-32.349,64.026,23.254
-0.300,0.627,-0.634,-18.005,40.466,12.268
-0.343,0.596,-0.663,-6.287,10.925,-7.507
-0.443,0.539,-0.668,2.075,-12.512,-27.039
-0.548,0.485,-0.670,6.836,-24.292,-34.485
-0.604,0.497,-0.680,7.690,-23.499,-27.344
-0.548,0.536,-0.701,6.592,-10.620,-7.996
-0.422,0.603,-0.729,4.028,9.521,15.320
-0.283,0.697,-0.780,0.854,29.724,34.546
-0.185,0.774,-0.838,-1.038,42.053,44.495
-0.133,0.798,-0.892,-1.465,43.945,43.640
-0.141,0.785,-0.911,-3.174,36.682,33.936
-0.182,0.757,-0.886,-6.104,23.987,21.606
-0.217,0.731,-0.815,-8.972,10.498,10.864
-0.249,0.704,-0.733,-10.864,1.343,3.479
-0.277,0.677,-0.676,-10.620,-2.686,-0.793
-0.311,0.661,-0.634,-9.155,-3.601,-2.563
-0.338,0.660,-0.603,-5.859,-2.319,-1.465
-0.345,0.654,-0.617,0.671,0.427,2.319
-0.336,0.649,-0.668,7.019,4.089,7.812
-0.318,0.656,-0.730,9.460,7.751,13.123
-0.303,0.658,-0.781,7.874,11.047,17.090
-0.282,0.672,-0.800,3.418,12.695,19.226
-0.249,0.689,-0.802,-1.465,12.878,20.752
-0.205,0.696,-0.802,-5.310,12.390,21.484
-0.178,0.710,-0.780,-9.094,11.536,19.897
-0.159,0.710,-0.733,-10.803,8.728,16.602
-0.149,0.702,-0.691,-9.521,5.676,13.306
-0.154,0.689,-0.673,-7.019,2.808,9.827
-0.172,0.670,-0.661,-4.395,1.282,6.226
-0.188,0.658,-0.636,-2.258,0.000,3.052
-0.191,0.638,-0.619,0.916,-1.343,1.892
-0.200,0.618,-0.620,3.662,-1.648,1.526
-0.213,0.607,-0.633,5.188,-0.488,1.099
-0.230,0.603,-0.648,5.554,0.977,1.343
-0.241,0.606,-0.668,5.066,2.625,2.197
-0.240,0.613,-0.690,4.211,4.517,3.662
-0.235,0.630,-0.706,2.869,6.104,5.188
-0.226,0.653,-0.714,1.282,7.324,5.554
-0.222,0.669,-0.720,0.671,8.545,5.432
-0.221,0.682,-0.724,0.854,8.545,4.578
-0.220,0.685,-0.732,1.587,7.812,3.662
-0.230,0.690,-0.734,2.319,7.202,2.441
-0.244,0.679,-0.738,3.418,6.042,0.488
-0.259,0.680,-0.738,4.517,4.028,-1.038
-0.271,0.674,-0.742,6.042,2.136,-1.465
-0.277,0.674,-0.753,6.714,1.709,-1.648
-0.278,0.674,-0.764,6.042,2.441,-0.854
-0.277,0.673,-0.767,4.456,3.418,-0.488
-0.272,0.673,-0.764,3.296,3.052,-0.793
-0.269,0.672,-0.755,2.930,1.587,-1.221
-0.270,0.662,-0.754,2.747,0.183,-2.075
-0.276,0.658,-0.748,1.709,-0.671,-2.686
-0.278,0.657,-0.739,0.000,-0.488,-2.319
-0.280,0.659,-0.727,-1.831,0.610,-1.465
-0.277,0.656,-0.714,-2.991,1.831,-0.549
-0.273,0.653,-0.702,-3.052,2.869,0.305
-0.268,0.642,-0.694,-2.502,2.869,0.366
-0.269,0.635,-0.684,-1.160,1.892,-0.488

0.219,0.191,-0.989,5.005,3.601,-3.052
0.231,0.190,-0.997,5.066,4.517,-2.380
0.248,0.187,-1.002,4.517,5.920,-1.648
0.268,0.177,-1.016,4.272,7.446,-1.953
0.291,0.160,-1.033,4.639,8.850,-2.808
0.307,0.140,-1.049,4.517,9.216,-3.723
0.322,0.114,-1.064,4.028,9.888,-4.578
0.331,0.077,-1.073,3.662,10.742,-5.920
0.342,0.037,-1.077,3.296,11.292,-6.958
0.360,0.000,-1.079,3.357,12.268,-7.263
0.382,-0.038,-1.089,3.845,14.404,-8.118
0.408,-0.086,-1.106,4.761,16.724,-9.155
0.435,-0.153,-1.132,6.897,18.982,-10.315
0.462,-0.224,-1.153,8.606,20.996,-11.841
0.474,-0.291,-1.162,10.010,22.949,-14.404
0.468,-0.359,-1.162,12.024,24.475,-19.348
0.456,-0.421,-1.153,16.724,24.231,-25.635
0.437,-0.482,-1.151,23.560,23.682,-31.189
0.409,-0.540,-1.169,31.616,24.170,-35.645
0.369,-0.594,-1.193,39.001,25.208,-39.001
0.328,-0.624,-1.206,44.495,25.879,-39.063
0.297,-0.640,-1.207,47.852,26.611,-34.729
0.276,-0.655,-1.208,50.049,28.931,-27.466
0.246,-0.647,-1.222,50.659,31.921,-19.409
0.220,-0.641,-1.228,51.208,33.997,-12.024
0.180,-0.642,-1.211,52.368,32.837,-5.676
0.122,-0.636,-1.165,54.260,28.381,-1.587
0.064,-0.636,-1.084,57.190,21.667,2.808
0.020,-0.639,-1.008,60.425,15.564,9.766
-0.039,-0.605,-0.903,60.242,11.230,17.883
-0.099,-0.555,-0.773,59.387,10.681,25.208
-0.180,-0.479,-0.616,59.631,11.597,33.936
-0.261,-0.427,-0.408,61.218,14.282,44.067
-0.342,-0.283,-0.172,62.256,17.273,49.011
-0.450,-0.091,0.075,67.261,23.376,57.800
-0.572,0.152,0.345,76.416,30.945,68.359
-0.718,0.496,0.686,91.980,40.344,78.613
-0.849,0.922,1.001,115.906,50.720,85.022
-1.085,1.386,1.263,143.799,57.617,84.778
-1.420,1.888,1.369,179.321,45.410,84.717
-1.790,2.335,1.279,220.764,10.803,102.966
-2.061,2.689,0.984,255.371,-15.625,148.621
-2.154,3.013,0.513,270.447,-7.568,210.999
-1.936,3.257,-0.176,264.709,31.616,273.560
-1.261,3.288,-0.918,247.620,67.078,323.792
-0.145,3.054,-1.416,225.098,61.340,343.750
0.757,2.802,-1.511,181.641,23.193,323.303
1.275,2.652,-1.506,121.521,10.803,264.465
1.546,2.599,-1.652,62.012,49.072,202.637
1.543,2.440,-1.925,7.080,99.121,137.512
1.263,2.021,-2.023,-31.982,106.018,56.946
0.659,1.686,-1.724,-59.814,43.640,-35.217
-0.003,1.240,-1.173,-67.017,-42.603,-115.540
-0.615,0.789,-0.592,-61.523,-105.835,-165.283
-1.016,0.407,-0.132,-58.044,-113.770,-169.250
-1.155,0.139,0.098,-59.326,-62.561,-131.409
-1.100,0.094,0.086,-63.660,8.240,-72.632
-0.965,0.251,-0.095,-62.134,61.584,-15.747
-0.745,0.398,-0.324,-48.523,80.811,21.362
-0.533,0.573,-0.501,-31.799,67.383,35.095
-0.349,0.672,-0.611,-19.287,40.222,26.733
-0.260,0.718,-0.657,-12.390,12.512,1.953
-0.261,0.635,-0.631,-7.202,-12.146,-26.794
-0.384,0.554,-0.564,-4.089,-33.508,-52.002
-0.539,0.458,-0.494,1.343,-49.011,-65.369
-0.653,0.386,-0.463,9.033,-52.185,-62.073
-0.668,0.370,-0.494,14.893,-40.039,-42.908
-0.589,0.415,-0.559,13.611,-16.296,-13.000
-0.460,0.527,-0.637,6.348,10.254,16.541
-0.297,0.668,-0.724,0.305,30.151,38.635
-0.146,0.802,-0.811,-3.662,38.086,46.631
-0.045,0.878,-0.878,-5.920,35.889,39.673
-0.016,0.901,-0.895,-6.958,23.743,23.010
-0.052,0.857,-0.847,-7.019,5.249,2.563
-0.128,0.822,-0.773,-5.920,-12.634,-16.357
-0.211,0.740,-0.708,-4.456,-23.926,-27.893
-0.299,0.693,-0.641,-4.150,-25.940,-32.593
-0.359,0.653,-0.598,-3.418,-19.897,-29.724
-0.382,0.626,-0.601,-0.732,-9.949,-21.118
-0.377,0.617,-0.638,1.282,-0.305,-10.620
-0.362,0.630,-0.691,3.235,6.409,-1.587
-0.333,0.654,-0.747,4.456,9.644,5.249
-0.297,0.687,-0.788,3.967,9.888,9.949
-0.252,0.711,-0.819,2.197,9.705,12.756
-0.204,0.727,-0.836,-1.160,9.399,13.733
-0.167,0.724,-0.823,-5.676,7.690,11.902
-0.153,0.712,-0.791,-8.911,3.418,7.812
-0.150,0.693,-0.741,-11.230,-0.427,3.662
-0.166,0.676,-0.685,-12.634,-2.258,-0.183
-0.190,0.666,-0.625,-11.902,-3.113,-2.747
-0.190,0.648,-0.581,-7.812,-3.296,-3.418
-0.184,0.630,-0.573,-1.953,-2.869,-2.991
-0.182,0.620,-0.592,3.052,-1.282,-2.441
-0.193,0.615,-0.624,6.653,0.488,-2.258
-0.209,0.611,-0.655,8.484,0.977,-1.892
-0.226,0.605,-0.675,8.484,0.977,-1.160
-0.233,0.601,-0.681,6.897,2.075,0.061
-0.236,0.605,-0.672,4.700,4.028,1.831
-0.243,0.617,-0.669,2.991,6.042,3.723
-0.238,0.631,-0.680,2.502,7.263,5.371
-0.233,0.653,-0.699,2.747,7.446,5.859
-0.232,0.670,-0.718,3.967,7.324,4.822
-0.232,0.680,-0.737,5.493,5.981,3.174
-0.238,0.687,-0.749,6.470,3.906,1.465
-0.245,0.685,-0.750,7.874,1.709,-0.427
-0.256,0.683,-0.739,8.423,-0.427,-1.831
-0.260,0.675,-0.736,9.094,-1.404,-2.075
-0.267,0.674,-0.743,9.216,-1.160,-1.831
-0.277,0.668,-0.745,8.179,-0.305,-1.038
-0.284,0.666,-0.743,7.141,0.610,0.427
-0.278,0.670,-0.745,5.676,2.625,3.235
-0.266,0.670,-0.752,3.662,4.333,5.615
-0.257,0.678,-0.749,1.465,4.578,6.409
-0.249,0.685,-0.733,0.122,2.441,5.676
-0.240,0.681,-0.711,0.000,-0.305,3.967
-0.234,0.668,-0.695,0.549,-2.197,2.258
-0.236,0.667,-0.674,0.488,-2.808,1.038
-0.229,0.670,-0.654,0.854,-2.869,0.671
-0.224,0.671,-0.646,2.563,-2.686,0.793

0.226,0.216,-1.002,1.282,3.296,-0.427
0.229,0.202,-1.003,0.610,3.601,-1.099
0.232,0.186,-1.003,0.305,3.967,-1.770
0.239,0.167,-1.003,0.366,4.395,-1.831
0.249,0.141,-1.010,1.221,5.127,-1.770
0.262,0.101,-1.030,2.747,5.554,-1.831
0.277,0.054,-1.055,4.333,5.615,-1.709
0.293,0.001,-1.067,5.676,5.371,-1.465
0.307,-0.057,-1.071,6.897,5.371,-1.648
0.315,-0.119,-1.069,8.789,5.432,-3.113
0.314,-0.176,-1.064,11.658,5.005,-4.700
0.310,-0.228,-1.054,16.174,4.517,-6.287
0.311,-0.279,-1.052,22.278,4.028,-7.141
0.318,-0.319,-1.057,29.114,3.418,-6.531
0.343,-0.340,-1.062,35.095,3.418,-4.150
0.373,-0.343,-1.063,38.757,5.798,-0.366
0.404,-0.335,-1.067,40.894,9.949,3.723
0.435,-0.317,-1.071,42.969,14.282,7.812
0.464,-0.294,-1.084,44.983,18.494,10.742
0.475,-0.271,-1.112,47.607,22.278,11.353
0.471,-0.252,-1.137,50.842,24.231,10.010
0.455,-0.232,-1.158,54.199,24.292,8.118
0.444,-0.223,-1.182,57.251,24.719,6.042
0.445,-0.232,-1.211,58.472,26.794,4.944
0.450,-0.253,-1.241,58.105,30.273,3.418
0.442,-0.283,-1.273,57.251,32.837,0.549
0.418,-0.324,-1.305,57.678,31.616,-3.540
0.380,-0.394,-1.322,59.387,24.536,-8.484
0.310,-0.472,-1.304,60.425,11.230,-15.198
0.213,-0.525,-1.257,59.937,-4.150,-21.240
0.095,-0.541,-1.166,57.007,-19.409,-22.888
-0.028,-0.566,-0.994,53.040,-31.921,-17.517
-0.187,-0.514,-0.750,53.772,-39.185,-11.108
-0.322,-0.531,-0.482,64.636,-40.771,0.610
-0.449,-0.434,-0.164,76.843,-37.598,13.489
-0.606,-0.244,0.195,93.140,-33.936,26.306
-0.737,-0.006,0.532,115.601,-30.273,43.213
-0.881,0.353,0.864,134.888,-26.245,60.791
-1.028,0.799,1.179,148.743,-20.874,73.975
-1.239,1.327,1.496,161.316,-18.127,84.595
-1.500,1.912,1.767,175.903,-24.048,105.286
-1.779,2.522,1.938,197.205,-33.447,140.564
-1.918,2.955,1.792,229.248,-28.992,192.139
-1.948,3.296,1.228,255.371,2.197,255.310
-1.564,3.526,0.302,265.869,57.739,311.829
-0.686,3.460,-0.718,260.071,104.309,350.098
0.407,3.075,-1.433,240.112,102.966,349.854
1.328,2.888,-1.799,191.650,76.172,317.444
1.908,3.136,-2.044,112.549,85.693,272.034
1.889,3.166,-2.474,21.729,144.897,203.491
1.544,2.547,-2.750,-37.720,172.485,90.637
0.938,2.001,-2.370,-68.665,86.487,-28.503
0.203,1.576,-1.498,-87.097,-53.833,-125.061
-0.491,1.046,-0.580,-82.886,-143.982,-189.941
-1.009,0.569,0.071,-75.623,-148.254,-210.022
-1.271,0.176,0.332,-74.768,-80.383,-171.936
-1.297,0.000,0.283,-78.918,12.573,-98.694
-1.189,0.122,0.079,-80.200,85.449,-21.484
-0.962,0.271,-0.156,-68.726,117.188,36.011
-0.712,0.448,-0.340,-48.950,110.352,64.331
-0.499,0.603,-0.471,-30.029,80.505,66.772
-0.362,0.683,-0.556,-12.817,46.631,45.837
-0.350,0.679,-0.592,0.854,14.343,16.479
-0.414,0.643,-0.596,11.841,-12.451,-10.193
-0.495,0.601,-0.588,20.447,-30.640,-24.475
-0.542,0.604,-0.594,24.536,-35.034,-24.109
-0.517,0.602,-0.644,23.682,-24.536,-11.292
-0.450,0.644,-0.690,16.541,-4.761,10.193
-0.352,0.690,-0.739,5.127,16.479,30.396
-0.251,0.762,-0.758,-7.141,32.043,44.067
-0.197,0.816,-0.760,-12.939,36.377,49.561
-0.152,0.824,-0.748,-13.855,32.227,45.593
-0.153,0.819,-0.719,-14.160,23.560,35.156
-0.195,0.811,-0.660,-14.404,13.184,22.888
-0.235,0.788,-0.609,-12.939,4.761,12.268
-0.274,0.753,-0.578,-10.132,-1.648,4.700
-0.311,0.726,-0.555,-7.202,-6.165,0.061
-0.341,0.706,-0.536,-4.578,-7.751,-1.404
-0.363,0.700,-0.531,-2.136,-6.226,0.366
-0.374,0.707,-0.542,1.404,-2.808,4.822
-0.368,0.710,-0.588,6.042,0.916,10.742
-0.351,0.728,-0.650,9.033,3.357,16.602
-0.326,0.751,-0.701,9.888,5.127,21.118
-0.289,0.772,-0.735,8.972,5.981,24.292
-0.254,0.797,-0.758,5.798,6.470,26.001
-0.214,0.818,-0.770,0.793,7.568,26.184
-0.179,0.831,-0.756,-4.395,7.812,25.208
-0.158,0.820,-0.717,-8.545,5.676,22.644
-0.135,0.803,-0.687,-10.742,2.991,18.799
-0.125,0.776,-0.651,-13.367,0.854,13.794
-0.135,0.761,-0.604,-15.625,-1.038,8.789
-0.149,0.747,-0.538,-14.648,-2.930,4.089
-0.153,0.713,-0.501,-9.521,-4.578,1.038
-0.162,0.682,-0.507,-4.639,-5.188,-1.770
-0.184,0.661,-0.534,-1.099,-4.395,-4.211
-0.219,0.661,-0.538,0.793,-4.028,-6.226
-0.250,0.655,-0.532,4.089,-4.578,-6.897
-0.267,0.650,-0.551,8.118,-4.272,-5.066
-0.277,0.650,-0.592,9.583,-1.343,-2.686
-0.280,0.670,-0.636,7.690,3.296,0.610
-0.277,0.703,-0.658,4.272,8.057,3.540
-0.267,0.733,-0.665,2.441,9.583,5.737
-0.248,0.748,-0.677,2.869,7.935,6.592
-0.232,0.762,-0.685,3.784,5.005,5.249
-0.225,0.764,-0.695,4.089,2.808,2.441
-0.235,0.764,-0.705,4.089,0.977,-1.160
-0.253,0.764,-0.707,3.601,-0.916,-3.784
-0.277,0.758,-0.689,3.540,-3.052,-5.188
-0.282,0.741,-0.675,4.211,-4.211,-5.188
-0.281,0.731,-0.674,4.578,-3.723,-4.150
-0.271,0.724,-0.685,3.357,-1.648,-3.113
-0.271,0.724,-0.689,1.526,0.244,-2.441
-0.275,0.718,-0.682,-0.122,0.122,-2.502
-0.278,0.710,-0.672,-1.282,-0.854,-2.625
-0.280,0.700,-0.656,-2.563,-1.587,-2.441
-0.275,0.693,-0.631,-3.784,-1.343,-1.770
-0.270,0.694,-0.600,-4.272,-0.916,-0.366
-0.264,0.687,-0.581,-2.502,0.000,1.038
-0.263,0.682,-0.578,0.427,0.671,1.709